File: packages/autoemxsp/autoemxsp-0.1.7.tar.gz/autoemxsp-0.1.7/autoemxsp/scripts/input/Example_spectrum.msa
#FORMAT      : EMSA/MAS Spectral Data File
#VERSION     : 1.0
#TITLE       : EDS Spectrum
#DATE        : 04-DEC-2025
#TIME        : 12:00
#OWNER       : Thermo Fisher Scientific Inc.
#NPOINTS     : 2048.
#NCOLUMNS    : 1.
#XUNITS      : eV
#YUNITS      : Counts
#DATATYPE    : Y
#XPERCHAN    : 9.951
#OFFSET      : -40.491
#XLABEL      : Energy
#YLABEL      : Counts
#SIGNALTYPE  : EDS
#BEAMKV   -kV: 15.000
#AZIMANGLE-dg: 0.0
#ELEVANGLE-dg: 28.5
#LIVETIME  -s: 9.412
#REALTIME  -s: 9.926
#EDSDET      : SDUTW
##MNFWHM  -eV: 126.3
##INSTRUMENT : MVE081392-10796-L
##SLOWTPEAK-s: 0.000004000
##FASTTPEAK-s: 0.000000100
##DETWD   -mm: 10.700
##WD      -mm: 5.063
##SDDAREA    : 0.000025
##DETDIST -mm: 35.060
##SCORR      : RAW
#SPECTRUM    : Spectral Data Starts Here
0.0,
0.0,
0.0,
0.0,
0.0,
0.0,
27.0,
30.0,
33.0,
48.0,
46.0,
50.0,
51.0,
75.0,
101.0,
135.0,
102.0,
90.0,
69.0,
51.0,
69.0,
59.0,
65.0,
59.0,
71.0,
154.0,
307.0,
617.0,
722.0,
485.0,
172.0,
90.0,
117.0,
126.0,
108.0,
124.0,
245.0,
311.0,
254.0,
136.0,
71.0,
59.0,
53.0,
50.0,
38.0,
57.0,
58.0,
52.0,
47.0,
41.0,
39.0,
44.0,
51.0,
46.0,
50.0,
36.0,
45.0,
52.0,
69.0,
51.0,
53.0,
48.0,
46.0,
58.0,
47.0,
51.0,
69.0,
66.0,
59.0,
46.0,
47.0,
47.0,
46.0,
52.0,
56.0,
86.0,
87.0,
94.0,
65.0,
71.0,
60.0,
62.0,
61.0,
43.0,
49.0,
54.0,
50.0,
46.0,
55.0,
68.0,
56.0,
65.0,
57.0,
59.0,
60.0,
67.0,
81.0,
86.0,
74.0,
78.0,
61.0,
53.0,
51.0,
49.0,
38.0,
38.0,
50.0,
40.0,
45.0,
52.0,
39.0,
41.0,
41.0,
52.0,
63.0,
64.0,
63.0,
71.0,
64.0,
88.0,
169.0,
378.0,
517.0,
802.0,
785.0,
678.0,
519.0,
472.0,
534.0,
506.0,
405.0,
254.0,
145.0,
78.0,
47.0,
32.0,
48.0,
60.0,
69.0,
72.0,
67.0,
62.0,
43.0,
57.0,
37.0,
37.0,
26.0,
30.0,
24.0,
28.0,
33.0,
25.0,
26.0,
31.0,
35.0,
29.0,
25.0,
37.0,
24.0,
36.0,
46.0,
50.0,
41.0,
36.0,
44.0,
43.0,
30.0,
33.0,
34.0,
30.0,
26.0,
26.0,
20.0,
27.0,
19.0,
26.0,
28.0,
14.0,
19.0,
29.0,
27.0,
37.0,
35.0,
22.0,
28.0,
34.0,
20.0,
23.0,
28.0,
16.0,
24.0,
21.0,
23.0,
26.0,
31.0,
28.0,
24.0,
31.0,
20.0,
32.0,
26.0,
18.0,
21.0,
23.0,
25.0,
15.0,
25.0,
31.0,
28.0,
22.0,
21.0,
33.0,
18.0,
28.0,
25.0,
31.0,
35.0,
39.0,
16.0,
27.0,
24.0,
27.0,
25.0,
31.0,
39.0,
17.0,
24.0,
18.0,
23.0,
24.0,
33.0,
24.0,
29.0,
18.0,
30.0,
22.0,
20.0,
25.0,
22.0,
27.0,
18.0,
23.0,
27.0,
29.0,
20.0,
19.0,
18.0,
19.0,
30.0,
24.0,
23.0,
17.0,
20.0,
15.0,
27.0,
26.0,
17.0,
19.0,
21.0,
18.0,
21.0,
23.0,
17.0,
25.0,
16.0,
25.0,
19.0,
18.0,
18.0,
27.0,
17.0,
18.0,
25.0,
20.0,
18.0,
23.0,
16.0,
24.0,
18.0,
19.0,
26.0,
27.0,
26.0,
28.0,
16.0,
20.0,
30.0,
24.0,
23.0,
15.0,
17.0,
20.0,
20.0,
29.0,
23.0,
18.0,
17.0,
16.0,
16.0,
23.0,
21.0,
21.0,
15.0,
23.0,
11.0,
23.0,
21.0,
20.0,
30.0,
24.0,
27.0,
19.0,
20.0,
18.0,
17.0,
17.0,
24.0,
24.0,
43.0,
70.0,
84.0,
146.0,
197.0,
226.0,
192.0,
165.0,
112.0,
87.0,
56.0,
36.0,
29.0,
28.0,
20.0,
17.0,
30.0,
20.0,
19.0,
19.0,
21.0,
22.0,
19.0,
16.0,
25.0,
12.0,
17.0,
16.0,
13.0,
12.0,
18.0,
25.0,
24.0,
23.0,
25.0,
27.0,
33.0,
37.0,
48.0,
33.0,
53.0,
28.0,
27.0,
22.0,
19.0,
13.0,
16.0,
12.0,
6.0,
11.0,
13.0,
12.0,
16.0,
25.0,
17.0,
16.0,
12.0,
9.0,
13.0,
17.0,
14.0,
17.0,
14.0,
9.0,
15.0,
16.0,
15.0,
7.0,
12.0,
11.0,
11.0,
22.0,
17.0,
11.0,
11.0,
14.0,
10.0,
9.0,
13.0,
14.0,
20.0,
17.0,
10.0,
6.0,
18.0,
14.0,
19.0,
23.0,
11.0,
18.0,
14.0,
15.0,
8.0,
15.0,
23.0,
20.0,
9.0,
7.0,
13.0,
15.0,
14.0,
12.0,
7.0,
10.0,
16.0,
7.0,
11.0,
10.0,
9.0,
8.0,
10.0,
13.0,
13.0,
18.0,
6.0,
11.0,
13.0,
13.0,
7.0,
15.0,
10.0,
5.0,
7.0,
9.0,
7.0,
11.0,
16.0,
8.0,
15.0,
12.0,
13.0,
7.0,
7.0,
7.0,
8.0,
13.0,
13.0,
13.0,
6.0,
3.0,
9.0,
9.0,
12.0,
16.0,
12.0,
6.0,
9.0,
10.0,
15.0,
10.0,
11.0,
11.0,
10.0,
9.0,
10.0,
7.0,
9.0,
9.0,
9.0,
9.0,
7.0,
5.0,
17.0,
9.0,
9.0,
10.0,
12.0,
8.0,
4.0,
13.0,
12.0,
7.0,
6.0,
8.0,
10.0,
11.0,
13.0,
14.0,
5.0,
10.0,
12.0,
7.0,
12.0,
11.0,
17.0,
9.0,
7.0,
14.0,
1.0,
12.0,
12.0,
4.0,
9.0,
5.0,
2.0,
13.0,
11.0,
12.0,
10.0,
11.0,
9.0,
9.0,
13.0,
11.0,
12.0,
11.0,
8.0,
9.0,
8.0,
8.0,
14.0,
8.0,
4.0,
5.0,
6.0,
7.0,
12.0,
6.0,
11.0,
7.0,
9.0,
11.0,
8.0,
11.0,
14.0,
8.0,
12.0,
12.0,
11.0,
11.0,
19.0,
12.0,
13.0,
7.0,
14.0,
13.0,
6.0,
6.0,
9.0,
6.0,
7.0,
4.0,
6.0,
9.0,
6.0,
6.0,
4.0,
7.0,
4.0,
3.0,
7.0,
9.0,
7.0,
5.0,
7.0,
5.0,
9.0,
10.0,
0.0,
2.0,
8.0,
10.0,
4.0,
8.0,
5.0,
5.0,
10.0,
4.0,
5.0,
7.0,
8.0,
6.0,
4.0,
5.0,
11.0,
3.0,
8.0,
2.0,
5.0,
5.0,
5.0,
5.0,
8.0,
4.0,
4.0,
6.0,
1.0,
4.0,
4.0,
7.0,
2.0,
4.0,
6.0,
1.0,
7.0,
2.0,
3.0,
6.0,
0.0,
6.0,
6.0,
4.0,
1.0,
3.0,
7.0,
2.0,
5.0,
2.0,
6.0,
4.0,
1.0,
2.0,
3.0,
5.0,
0.0,
1.0,
3.0,
8.0,
7.0,
2.0,
4.0,
3.0,
5.0,
5.0,
2.0,
1.0,
6.0,
9.0,
4.0,
2.0,
2.0,
5.0,
2.0,
7.0,
5.0,
3.0,
5.0,
1.0,
2.0,
2.0,
5.0,
5.0,
3.0,
4.0,
2.0,
5.0,
2.0,
6.0,
4.0,
0.0,
0.0,
0.0,
4.0,
1.0,
4.0,
3.0,
1.0,
0.0,
4.0,
4.0,
3.0,
2.0,
1.0,
2.0,
2.0,
3.0,
3.0,
3.0,
7.0,
1.0,
2.0,
2.0,
0.0,
2.0,
2.0,
6.0,
2.0,
0.0,
0.0,
2.0,
2.0,
1.0,
1.0,
3.0,
2.0,
2.0,
0.0,
2.0,
1.0,
1.0,
0.0,
2.0,
1.0,
0.0,
2.0,
0.0,
1.0,
1.0,
2.0,
2.0,
0.0,
3.0,
1.0,
2.0,
1.0,
1.0,
1.0,
0.0,
0.0,
1.0,
0.0,
0.0,
3.0,
0.0,
0.0,
0.0,
1.0,
1.0,
3.0,
1.0,
1.0,
1.0,
0.0,
0.0,
0.0,
1.0,
1.0,
0.0,
0.0,
0.0,
1.0,
0.0,
0.0,
0.0,
0.0,
0.0,
0.0,
0.0,
0.0,
0.0,
0.0,
0.0,
0.0,
0.0,
0.0,
0.0,
0.0,
0.0,
0.0,
0.0,
0.0,
0.0,
0.0,
0.0,
0.0,
0.0,
0.0,
0.0,
0.0,
0.0,
0.0,
0.0,
0.0,
0.0,
0.0,
0.0,
0.0,
0.0,
0.0,
0.0,
0.0,
0.0,
0.0,
0.0,
0.0,
0.0,
0.0,
0.0,
0.0,
0.0,
0.0,
0.0,
0.0,
0.0,
0.0,
0.0,
0.0,
0.0,
0.0,
0.0,
0.0,
0.0,
0.0,
0.0,
0.0,
0.0,
0.0,
0.0,
0.0,
0.0,
0.0,
0.0,
0.0,
0.0,
0.0,
0.0,
0.0,
0.0,
0.0,
0.0,
0.0,
0.0,
0.0,
0.0,
0.0,
0.0,
0.0,
0.0,
0.0,
0.0,
0.0,
0.0,
0.0,
0.0,
0.0,
0.0,
0.0,
0.0,
0.0,
0.0,
0.0,
0.0,
0.0,
0.0,
0.0,
0.0,
0.0,
0.0,
0.0,
0.0,
0.0,
0.0,
0.0,
0.0,
0.0,
0.0,
0.0,
0.0,
0.0,
0.0,
0.0,
0.0,
0.0,
0.0,
0.0,
0.0,
0.0,
0.0,
0.0,
0.0,
0.0,
0.0,
0.0,
0.0,
0.0,
0.0,
0.0,
0.0,
0.0,
0.0,
0.0,
0.0,
0.0,
0.0,
0.0,
0.0,
0.0,
0.0,
0.0,
0.0,
0.0,
0.0,
0.0,
0.0,
0.0,
0.0,
0.0,
0.0,
0.0,
0.0,
0.0,
0.0,
0.0,
0.0,
0.0,
0.0,
0.0,
0.0,
0.0,
0.0,
0.0,
0.0,
0.0,
0.0,
0.0,
0.0,
0.0,
0.0,
0.0,
0.0,
0.0,
0.0,
0.0,
0.0,
0.0,
0.0,
0.0,
0.0,
0.0,
0.0,
0.0,
0.0,
0.0,
0.0,
0.0,
0.0,
0.0,
0.0,
0.0,
0.0,
0.0,
0.0,
0.0,
0.0,
0.0,
0.0,
0.0,
0.0,
0.0,
0.0,
0.0,
0.0,
0.0,
0.0,
0.0,
0.0,
0.0,
0.0,
0.0,
0.0,
0.0,
0.0,
0.0,
0.0,
0.0,
0.0,
0.0,
0.0,
0.0,
0.0,
0.0,
0.0,
0.0,
0.0,
0.0,
0.0,
0.0,
0.0,
0.0,
0.0,
0.0,
0.0,
0.0,
0.0,
0.0,
0.0,
0.0,
0.0,
0.0,
0.0,
0.0,
0.0,
0.0,
0.0,
0.0,
0.0,
0.0,
0.0,
0.0,
0.0,
0.0,
0.0,
0.0,
0.0,
0.0,
0.0,
0.0,
0.0,
0.0,
0.0,
0.0,
0.0,
0.0,
0.0,
0.0,
0.0,
0.0,
#ENDOFDATA   :